File: Hrishikesh Dombe/Samples/Terrain/texture/texture/tga_data.txt
112,104,87,255,
96,80,66,255,
144,135,121,255,
117,111,92,255,
138,127,110,255,
150,140,127,255,
90,76,55,255,
90,83,66,255,
58,47,40,255,
131,116,101,255,
111,102,87,255,
99,90,74,255,
114,104,89,255,
82,74,61,255,
83,76,61,255,
129,116,99,255,
101,87,73,255,
131,124,107,255,
100,89,74,255,
78,72,54,255,
86,77,68,255,
121,113,102,255,
122,113,100,255,
113,103,86,255,
95,80,71,255,
109,99,80,255,
64,57,39,255,
87,79,64,255,
132,123,106,255,
92,73,46,255,
73,60,42,255,
112,101,83,255,
143,129,116,255,
76,66,54,255,
125,111,93,255,
127,116,100,255,
102,94,81,255,
103,95,80,255,
109,99,85,255,
100,89,81,255,
174,159,142,255,
97,83,67,255,
102,91,80,255,
125,111,95,255,
133,122,98,255,
163,149,130,255,
120,107,89,255,
121,110,99,255,
127,120,109,255,
134,123,109,255,
125,121,106,255,
132,118,108,255,
122,109,97,255,
106,93,79,255,
108,90,67,255,
114,107,87,255,
93,83,73,255,
132,115,96,255,
107,97,81,255,
87,77,62,255,
93,80,60,255,
119,107,96,255,
102,96,87,255,
143,133,118,255,
137,114,94,255,
102,90,82,255,
123,112,98,255,
126,114,98,255,
120,110,95,255,
91,76,59,255,
85,73,61,255,
139,127,115,255,
146,141,130,255,
101,88,74,255,
102,93,69,255,
97,88,78,255,
125,107,92,255,
105,95,72,255,
102,89,79,255,
81,70,50,255,
111,101,86,255,
130,116,102,255,
158,140,127,255,
119,112,99,255,
155,148,131,255,
123,110,99,255,
92,81,67,255,
121,110,96,255,
90,84,72,255,
95,87,67,255,
74,64,60,255,
124,113,93,255,
89,75,59,255,
91,86,74,255,
111,93,77,255,
163,149,142,255,
79,72,54,255,
89,80,66,255,
145,130,120,255,
101,86,69,255,
116,106,86,255,
93,80,62,255,
151,144,123,255,
109,96,80,255,
116,107,94,255,
93,83,67,255,
98,88,72,255,
94,84,61,255,
84,76,60,255,
132,125,109,255,
134,119,103,255,
107,97,82,255,
103,95,80,255,
217,201,194,255,
117,103,93,255,
95,85,73,255,
110,97,73,255,
107,90,76,255,
128,115,110,255,
96,88,70,255,
156,140,127,255,
155,148,130,255,
105,92,81,255,
86,76,58,255,
110,94,79,255,
102,96,77,255,
120,111,92,255,
154,139,119,255,
61,48,46,255,
110,94,80,255,
92,85,67,255,
108,99,92,255,
45,32,23,255,
101,87,68,255,
108,98,77,255,
81,76,56,255,
84,77,63,255,
71,65,56,255,
96,87,71,255,
124,116,98,255,
136,127,108,255,
113,99,86,255,
139,128,106,255,
78,70,59,255,
137,123,110,255,
94,87,70,255,
94,83,72,255,
99,93,73,255,
123,112,98,255,
109,92,78,255,
102,96,77,255,
100,91,78,255,
99,89,73,255,
79,65,54,255,
129,119,104,255,
102,94,76,255,
95,86,70,255,
135,122,110,255,
115,104,96,255,
117,106,92,255,
90,77,74,255,
92,82,65,255,
82,75,62,255,
107,94,73,255,
125,120,101,255,
111,101,79,255,
138,124,112,255,
169,151,131,255,
137,128,108,255,
112,108,87,255,
142,129,117,255,
114,100,87,255,
63,59,49,255,
62,53,44,255,
95,84,66,255,
111,101,84,255,
97,92,73,255,
108,99,83,255,
131,114,98,255,
119,104,87,255,
150,142,124,255,
72,55,40,255,
98,86,67,255,
78,66,55,255,
153,143,127,255,
108,95,76,255,
106,92,77,255,
137,127,110,255,
75,69,62,255,
110,101,85,255,
119,106,94,255,
116,106,89,255,
103,91,76,255,
81,76,56,255,
95,83,69,255,
78,66,53,255,
105,90,79,255,
123,114,94,255,
112,106,82,255,
128,116,99,255,
88,76,63,255,
124,112,99,255,
95,85,70,255,
97,86,67,255,
96,90,75,255,
123,119,97,255,
91,71,59,255,
82,69,56,255,
86,70,53,255,
108,97,83,255,
96,87,78,255,
96,87,81,255,
123,112,96,255,
150,133,118,255,
109,100,91,255,
170,159,145,255,
92,79,60,255,
118,105,89,255,
98,87,78,255,
82,72,62,255,
89,78,60,255,
89,74,59,255,
111,98,83,255,
91,84,67,255,
80,71,52,255,
166,152,125,255,
109,98,80,255,
96,82,62,255,
80,71,56,255,
98,88,73,255,
141,130,114,255,
125,110,101,255,
102,92,74,255,
130,122,104,255,
159,151,131,255,
145,128,103,255,
132,123,100,255,
125,117,99,255,
141,128,113,255,
118,108,98,255,
90,78,62,255,
95,82,70,255,
91,82,70,255,
105,94,79,255,
91,78,68,255,
112,99,82,255,
100,83,74,255,
117,102,83,255,
101,87,77,255,
124,110,94,255,
147,135,116,255,
109,99,85,255,
109,93,77,255,
86,77,62,255,
106,85,68,255,
105,90,73,255,
92,84,69,255,
117,104,88,255,
122,111,96,255,
84,72,56,255,
81,76,61,255,
92,77,66,255,
103,93,78,255,
80,71,48,255,
94,80,69,255,
73,53,37,255,
173,153,130,255,
89,73,65,255,
134,122,112,255,
118,114,97,255,
94,84,67,255,
143,133,111,255,
120,110,102,255,
91,81,67,255,
123,109,97,255,
128,118,107,255,
126,114,107,255,
108,94,77,255,
96,85,75,255,
75,64,59,255,
92,82,71,255,
111,100,87,255,
92,78,67,255,
162,159,154,255,
105,88,72,255,
99,92,73,255,
105,94,79,255,
96,78,62,255,
112,105,86,255,
99,86,69,255,
135,117,103,255,
89,79,64,255,
76,68,60,255,
112,101,77,255,
100,90,75,255,
132,120,106,255,
101,90,71,255,
124,110,94,255,
129,114,96,255,
89,77,59,255,
83,72,59,255,
102,85,73,255,
70,62,48,255,
132,117,99,255,
117,104,92,255,
74,62,41,255,
78,68,53,255,
122,104,86,255,
47,35,32,255,
129,116,105,255,
81,66,45,255,
83,67,60,255,
105,87,71,255,
102,95,79,255,
131,117,105,255,
89,84,64,255,
138,126,119,255,
126,115,96,255,
68,58,43,255,
106,94,72,255,
94,84,69,255,
102,89,73,255,
110,95,87,255,
94,83,65,255,
90,76,65,255,
118,109,88,255,
93,84,71,255,
114,106,95,255,
120,118,96,255,
107,92,75,255,
139,129,114,255,
98,85,67,255,
140,131,123,255,
133,121,108,255,
103,94,80,255,
98,80,61,255,
102,91,77,255,
107,97,81,255,
138,121,104,255,
139,131,121,255,
97,91,74,255,
109,98,77,255,
209,201,184,255,
89,76,63,255,
130,115,97,255,
116,104,92,255,
122,112,94,255,
97,77,64,255,
114,108,85,255,
111,99,82,255,
103,90,80,255,
93,82,70,255,
103,94,86,255,
102,92,78,255,
111,95,78,255,
107,97,81,255,
102,93,78,255,
130,124,110,255,
117,99,92,255,
104,97,79,255,
124,114,97,255,
131,124,107,255,
133,119,107,255,
107,91,79,255,
97,81,69,255,
113,98,88,255,
126,113,98,255,
89,78,63,255,
104,92,80,255,
100,82,74,255,
152,139,119,255,
101,90,66,255,
87,73,54,255,
115,99,88,255,
110,100,80,255,
128,114,86,255,
97,91,81,255,
103,85,62,255,
95,85,69,255,
110,104,85,255,
143,133,115,255,
75,60,48,255,
99,81,66,255,
127,127,104,255,
103,93,78,255,
109,98,83,255,
106,92,73,255,
102,92,76,255,
122,112,96,255,
143,131,118,255,
117,110,92,255,
111,99,82,255,
38,34,22,255,
98,85,69,255,
118,111,89,255,
102,92,81,255,
117,106,92,255,
83,73,67,255,
119,108,90,255,
78,71,54,255,
95,84,68,255,
162,144,114,255,
96,85,74,255,
101,86,68,255,
92,82,69,255,
126,116,105,255,
132,121,107,255,
98,87,70,255,
108,92,71,255,
107,97,86,255,
128,121,104,255,
170,159,144,255,
120,105,86,255,
88,79,70,255,
104,94,78,255,
123,112,105,255,
48,38,32,255,
114,98,81,255,
98,88,65,255,
102,93,75,255,
97,86,71,255,
113,98,88,255,
123,116,90,255,
118,106,93,255,
150,144,126,255,
120,103,88,255,
89,80,68,255,
70,62,45,255,
113,100,84,255,
39,34,24,255,
116,102,81,255,
99,88,81,255,
88,76,64,255,
91,80,62,255,
123,112,88,255,
122,114,92,255,
100,85,73,255,
95,86,71,255,
114,100,97,255,
133,127,110,255,
115,110,90,255,
134,123,108,255,
122,118,100,255,
101,89,78,255,
104,96,79,255,
150,138,123,255,
88,75,55,255,
120,111,90,255,
109,102,85,255,
110,107,89,255,
137,122,101,255,
109,98,84,255,
112,109,89,255,
102,91,75,255,
108,94,84,255,
107,87,73,255,
206,184,175,255,
86,70,55,255,
100,86,76,255,
131,115,98,255,
167,149,136,255,
69,54,44,255,
103,90,73,255,
101,85,70,255,
119,109,94,255,
107,97,82,255,
131,120,99,255,
127,115,97,255,
130,119,105,255,
77,68,50,255,
142,123,106,255,
102,84,69,255,
147,133,114,255,
104,92,80,255,
104,95,84,255,
99,90,69,255,
90,81,65,255,
119,109,93,255,
96,87,65,255,
96,88,70,255,
98,89,74,255,
154,141,124,255,
103,93,71,255,
88,80,65,255,
101,89,72,255,
105,92,78,255,
110,103,88,255,
69,62,45,255,
89,80,61,255,
109,98,81,255,
158,145,134,255,
122,114,101,255,
126,117,101,255,
109,98,85,255,
132,119,104,255,
130,114,97,255,
115,106,95,255,
82,71,56,255,
82,76,65,255,
121,108,97,255,
76,64,41,255,
118,104,87,255,
104,90,71,255,
170,162,146,255,
130,119,102,255,
105,98,87,255,
128,121,107,255,
149,136,126,255,
148,130,116,255,
100,86,74,255,
128,126,109,255,
96,82,70,255,
72,63,48,255,
129,113,96,255,
117,108,89,255,
112,100,84,255,
118,108,98,255,
100,89,75,255,
104,90,79,255,
94,85,70,255,
103,93,81,255,
106,92,80,255,
90,79,60,255,
35,26,10,255,
131,117,107,255,
88,79,71,255,
124,113,91,255,
76,69,57,255,
140,124,116,255,
100,89,71,255,
110,96,77,255,
165,147,125,255,
84,72,53,255,
120,113,95,255,
88,76,54,255,
105,95,78,255,
86,76,59,255,
151,138,122,255,
100,86,74,255,
122,108,95,255,
128,116,101,255,
111,101,80,255,
97,87,71,255,
130,120,105,255,
94,92,80,255,
51,42,26,255,
123,110,92,255,
103,90,74,255,
90,79,59,255,
124,114,91,255,
81,78,62,255,
94,80,61,255,
113,104,84,255,
116,108,92,255,
116,108,90,255,
131,120,99,255,
106,96,81,255,
108,97,79,255,
127,114,89,255,
130,117,99,255,
102,88,76,255,
189,188,167,255,
129,120,104,255,
113,104,91,255,
91,82,64,255,
101,95,76,255,
133,125,112,255,
150,136,126,255,
130,121,106,255,
84,77,59,255,
107,95,78,255,
128,115,94,255,
97,89,78,255,
76,68,51,255,
103,85,75,255,
82,73,67,255,
133,123,110,255,
86,79,61,255,
106,96,73,255,
101,89,71,255,
106,92,81,255,
158,147,132,255,
80,69,60,255,
105,95,80,255,
211,197,181,255,
62,56,44,255,
87,78,64,255,
99,87,74,255,
127,119,103,255,
115,106,87,255,
119,107,93,255,
99,93,78,255,
99,85,73,255,
104,95,79,255,
80,67,57,255,
121,109,96,255,
129,117,109,255,
114,101,84,255,
152,139,125,255,
114,103,89,255,
88,74,63,255,
97,92,73,255,
136,126,112,255,
93,83,62,255,
105,95,80,255,
96,83,68,255,
176,160,151,255,
112,97,73,255,
115,106,82,255,
95,80,62,255,
84,70,56,255,
87,74,59,255,
121,108,90,255,
116,110,89,255,
122,112,95,255,
94,87,71,255,
109,99,85,255,
119,108,91,255,
125,116,105,255,
147,136,117,255,
139,127,105,255,
120,114,90,255,
127,113,87,255,
110,99,83,255,
93,77,63,255,
97,89,79,255,
93,82,71,255,
120,111,96,255,
125,110,93,255,
101,88,75,255,
169,145,129,255,
143,127,109,255,
96,84,71,255,
89,75,66,255,
104,91,70,255,
95,82,68,255,
116,107,88,255,
153,143,125,255,
124,112,93,255,
104,90,71,255,
123,114,90,255,
92,82,67,255,
149,141,122,255,
104,93,79,255,
71,59,54,255,
144,137,123,255,
102,89,72,255,
127,119,100,255,
106,95,74,255,
117,113,92,255,
110,101,85,255,
103,85,69,255,
101,88,77,255,
137,123,111,255,
88,76,65,255,
101,91,76,255,
102,96,86,255,
107,100,84,255,
146,136,129,255,
92,82,74,255,
142,133,114,255,
117,108,95,255,
125,114,100,255,
90,78,66,255,
107,93,83,255,
120,115,97,255,
103,95,82,255,
79,72,59,255,
106,99,90,255,
99,90,76,255,
121,113,96,255,
108,92,77,255,
122,108,89,255,
84,73,58,255,
105,96,80,255,
137,122,105,255,
123,118,100,255,
84,75,61,255,
45,39,22,255,
121,110,96,255,
112,99,83,255,
92,83,71,255,
113,108,89,255,
93,80,62,255,
125,116,103,255,
111,97,82,255,
109,93,71,255,
203,174,163,255,
160,147,130,255,
210,191,157,255,
134,119,101,255,
69,64,45,255,
116,106,92,255,
177,162,137,255,
74,64,53,255,
113,102,89,255,
91,85,66,255,
97,87,68,255,
152,141,128,255,
94,81,62,255,
129,117,105,255,
102,91,84,255,
131,121,101,255,
122,111,82,255,
97,87,72,255,
92,78,62,255,
105,90,78,255,
87,79,63,255,
74,70,55,255,
60,48,43,255,
104,97,80,255,
129,120,104,255,
113,105,82,255,
97,84,73,255,
114,102,99,255,
113,105,89,255,
93,81,60,255,
143,129,115,255,
114,103,84,255,
85,76,60,255,
120,111,97,255,
133,123,109,255,
94,81,64,255,
87,72,60,255,
106,102,88,255,
113,103,85,255,
96,91,72,255,
118,102,81,255,
117,107,99,255,
80,71,57,255,
133,123,107,255,
92,84,67,255,
115,103,86,255,
110,91,77,255,
99,89,74,255,
94,82,70,255,
116,109,90,255,
115,107,95,255,
114,106,97,255,
78,65,47,255,
96,80,60,255,
101,86,68,255,
79,72,57,255,
114,99,79,255,
119,112,103,255,
111,102,83,255,
110,103,92,255,
110,100,85,255,
90,75,59,255,
92,85,74,255,
84,77,60,255,
110,98,85,255,
53,47,35,255,
102,87,73,255,
95,84,68,255,
109,99,85,255,
127,112,94,255,
94,80,66,255,
103,97,88,255,
111,99,76,255,
124,114,93,255,
108,95,75,255,
119,101,80,255,
79,60,48,255,
135,124,114,255,
65,54,41,255,
106,98,87,255,
100,90,77,255,
121,111,96,255,
116,101,87,255,
121,106,98,255,
139,129,105,255,
139,125,118,255,
84,71,57,255,
113,100,84,255,
120,114,95,255,
114,99,82,255,
164,146,138,255,
88,80,64,255,
106,87,61,255,
118,108,92,255,
127,114,97,255,
90,80,66,255,
58,49,23,255,
136,123,102,255,
139,132,114,255,
94,83,68,255,
116,96,84,255,
80,67,56,255,
94,84,70,255,
68,68,42,255,
152,139,129,255,
114,108,92,255,
87,72,62,255,
148,132,118,255,
93,84,69,255,
103,94,72,255,
81,69,48,255,
142,125,104,255,
143,139,122,255,
75,66,51,255,
91,82,66,255,
130,116,98,255,
111,100,84,255,
96,83,72,255,
125,114,93,255,
117,109,84,255,
57,52,50,255,
86,75,55,255,
104,97,79,255,
127,114,93,255,
131,117,107,255,
98,85,65,255,
108,95,78,255,
130,111,95,255,
79,68,55,255,
81,70,60,255,
112,99,86,255,
82,72,49,255,
131,118,99,255,
77,64,43,255,
113,98,87,255,
82,69,57,255,
139,127,112,255,
137,129,110,255,
108,95,78,255,
111,98,82,255,
131,119,106,255,
89,78,65,255,
131,122,104,255,
93,84,63,255,
74,61,48,255,
119,106,91,255,
89,78,65,255,
95,81,62,255,
103,93,79,255,
116,108,93,255,
122,111,97,255,
107,93,70,255,
131,124,105,255,
106,97,76,255,
95,84,70,255,
108,100,80,255,
84,66,51,255,
124,110,91,255,
109,94,75,255,
156,152,139,255,
112,96,72,255,
89,82,65,255,
114,104,90,255,
89,73,64,255,
131,117,105,255,
105,94,76,255,
87,79,63,255,
129,113,99,255,
118,107,91,255,
130,117,101,255,
102,89,78,255,
84,70,52,255,
96,85,66,255,
96,91,71,255,
77,68,51,255,
128,121,115,255,
78,69,52,255,
82,72,59,255,
119,108,93,255,
83,70,58,255,
86,78,63,255,
94,83,70,255,
115,105,89,255,
104,94,78,255,
87,75,60,255,
106,99,84,255,
131,122,108,255,
125,112,101,255,
116,107,86,255,
96,94,79,255,
187,172,154,255,
132,117,99,255,
117,108,88,255,
126,111,97,255,
169,147,132,255,
109,98,79,255,
100,93,69,255,
91,81,67,255,
74,60,50,255,
136,122,106,255,
155,149,131,255,
103,87,77,255,
143,139,121,255,
131,124,103,255,
89,76,56,255,
118,110,92,255,
132,116,99,255,
126,115,99,255,
98,83,66,255,
109,99,84,255,
115,107,99,255,
112,100,78,255,
114,103,90,255,
125,120,101,255,
140,129,106,255,
118,107,89,255,
125,112,100,255,
107,97,79,255,
94,83,70,255,
120,107,89,255,
109,98,86,255,
106,97,89,255,
78,69,57,255,
151,143,129,255,
174,155,140,255,
116,108,91,255,
126,111,96,255,
140,126,108,255,
95,85,63,255,
106,95,78,255,
106,94,77,255,
109,91,76,255,
136,124,109,255,
130,119,104,255,
133,116,104,255,
110,102,81,255,
167,150,125,255,
108,97,81,255,
122,117,89,255,
147,133,123,255,
98,89,70,255,
91,84,66,255,
99,87,70,255,
116,108,92,255,
122,109,100,255,
104,98,88,255,
117,106,89,255,
105,90,82,255,
106,97,79,255,
90,76,66,255,
99,85,72,255,
75,62,49,255,
90,76,62,255,
109,96,84,255,
93,80,69,255,
109,95,80,255,
106,95,79,255,
113,99,81,255,
89,74,64,255,
120,102,86,255,
152,135,118,255,
112,101,91,255,
98,84,66,255,
128,120,102,255,
91,83,63,255,
87,72,56,255,
109,93,77,255,
104,91,70,255,
84,77,59,255,
122,112,97,255,
127,113,104,255,
120,103,89,255,
176,171,144,255,
139,127,110,255,
70,61,47,255,
90,81,63,255,
132,120,105,255,
81,68,55,255,
116,107,82,255,
89,76,66,255,
69,59,48,255,
109,96,83,255,
135,121,106,255,
113,98,84,255,
121,101,87,255,
101,90,73,255,
76,66,53,255,
116,107,87,255,
97,88,73,255,
109,103,84,255,
126,115,92,255,
107,95,79,255,
121,112,97,255,
95,81,62,255,
132,119,102,255,
117,102,85,255,
131,119,98,255,
137,128,105,255,
100,89,73,255,
103,94,71,255,
109,97,74,255,
121,108,95,255,
98,85,66,255,
94,82,63,255,
102,97,74,255,
127,117,92,255,
94,81,70,255,
111,100,84,255,
75,58,42,255,
82,72,57,255,
109,93,75,255,
115,102,84,255,
117,107,91,255,
91,80,66,255,
146,134,132,255,
118,109,92,255,
89,76,55,255,
141,124,102,255,
110,98,81,255,
123,116,93,255,
98,81,64,255,
146,132,114,255,
107,93,74,255,
172,161,148,255,
86,79,67,255,
101,87,76,255,
127,121,102,255,
116,107,89,255,
108,94,83,255,
94,81,64,255,
109,100,85,255,
87,80,62,255,
146,129,115,255,
127,115,105,255,
94,82,65,255,
96,86,72,255,
112,97,86,255,
189,176,160,255,
118,108,88,255,
90,81,66,255,
98,91,73,255,
89,79,55,255,
101,89,74,255,
111,94,79,255,
115,102,91,255,
110,97,85,255,
146,134,119,255,
113,104,84,255,
94,83,70,255,
121,111,96,255,
83,78,67,255,
114,100,86,255,
107,93,78,255,
153,129,114,255,
141,129,114,255,
125,115,97,255,
92,78,64,255,
104,91,74,255,
133,124,106,255,
116,102,85,255,
90,78,69,255,
107,98,80,255,
90,84,67,255,
78,71,54,255,
130,116,100,255,
92,76,62,255,
88,84,63,255,
119,106,89,255,
108,98,79,255,
86,79,60,255,
102,96,83,255,
107,89,74,255,
88,75,58,255,
122,107,88,255,
101,89,74,255,
126,115,98,255,
105,100,76,255,
107,90,79,255,
85,69,55,255,
99,89,75,255,
106,96,80,255,
123,116,99,255,
82,69,58,255,
87,77,58,255,
83,71,54,255,
106,96,75,255,
130,123,116,255,
86,78,72,255,
108,99,84,255,
103,100,85,255,
105,89,72,255,
89,80,66,255,
115,102,83,255,
117,104,88,255,
101,91,73,255,
102,91,83,255,
87,78,70,255,
119,105,95,255,
122,114,97,255,
105,91,72,255,
153,140,121,255,
101,89,76,255,
129,119,102,255,
108,96,84,255,
88,79,56,255,
121,109,99,255,
106,90,77,255,
102,92,69,255,
96,86,72,255,
95,81,61,255,
174,158,138,255,
152,139,111,255,
79,73,61,255,
73,65,50,255,
109,106,85,255,
86,76,52,255,
111,105,92,255,
136,125,110,255,
109,98,85,255,
87,65,48,255,
104,89,78,255,
117,106,89,255,
143,129,109,255,
105,97,80,255,
107,88,82,255,
144,128,108,255,
126,113,94,255,
92,83,68,255,
120,105,87,255,
69,60,50,255,
130,124,105,255,
148,139,126,255,
160,148,128,255,
131,119,102,255,
102,96,78,255,
105,97,79,255,
104,88,76,255,
116,103,91,255,
121,108,90,255,
101,90,72,255,
110,99,77,255,
89,87,71,255,
147,127,114,255,
112,104,82,255,
60,51,35,255,
74,61,48,255,
180,160,141,255,
117,102,83,255,
110,101,81,255,
123,112,97,255,
103,94,79,255,
102,91,79,255,
97,91,71,255,
120,105,81,255,
108,94,83,255,
130,118,97,255,
86,81,62,255,
149,123,103,255,
82,66,58,255,
101,94,73,255,
97,88,73,255,
99,93,75,255,
105,97,79,255,
122,111,91,255,
108,93,77,255,
116,104,81,255,
102,92,86,255,
128,112,94,255,
134,120,105,255,
144,130,111,255,
109,102,90,255,
104,95,83,255,
118,106,83,255,
139,130,112,255,
129,123,110,255,
97,88,65,255,
92,81,66,255,
94,85,64,255,
95,85,70,255,
105,96,83,255,
137,124,106,255,
136,126,113,255,
113,100,80,255,
113,103,84,255,
109,102,89,255,
111,99,86,255,
115,101,90,255,
147,139,120,255,
144,136,119,255,
175,150,143,255,
129,118,96,255,
131,120,106,255,
116,103,85,255,
114,99,81,255,
107,94,78,255,
109,99,78,255,
106,89,75,255,
89,77,65,255,
100,94,83,255,
181,157,148,255,
97,90,75,255,
138,123,105,255,
157,148,124,255,
130,125,122,255,
111,106,86,255,
111,104,83,255,
96,84,72,255,
132,119,109,255,
131,117,102,255,
121,114,102,255,
127,114,95,255,
90,81,60,255,
97,87,72,255,
112,99,84,255,
106,96,82,255,
109,97,79,255,
116,105,87,255,
112,98,79,255,
98,88,68,255,
164,152,132,255,
111,97,81,255,
81,72,58,255,
103,90,79,255,
103,90,79,255,
120,110,87,255,
49,39,24,255,
110,95,81,255,
104,94,78,255,
140,126,101,255,
87,76,60,255,
106,98,83,255,
95,81,62,255,
147,133,123,255,
113,110,90,255,
188,169,145,255,
84,79,60,255,
129,121,99,255,
102,89,77,255,
119,107,89,255,
69,55,47,255,
123,109,91,255,
126,111,93,255,
89,81,65,255,
101,91,71,255,
156,138,132,255,
85,78,61,255,
103,92,76,255,
87,77,67,255,
138,125,103,255,
101,93,80,255,
122,108,90,255,
129,118,103,255,
121,112,98,255,
125,114,98,255,
150,140,125,255,
113,101,79,255,
92,88,77,255,
44,31,19,255,
98,85,73,255,
91,90,76,255,
114,103,85,255,
144,130,113,255,
174,161,151,255,
95,90,79,255,
147,134,115,255,
96,87,70,255,
113,105,82,255,
99,90,76,255,
91,84,64,255,
92,78,60,255,
111,101,94,255,
145,134,118,255,
111,99,88,255,
134,127,109,255,
101,86,73,255,
119,110,86,255,
125,106,95,255,
94,85,69,255,
121,110,93,255,
91,80,60,255,
73,64,51,255,
119,103,79,255,
95,88,69,255,
122,113,97,255,
54,47,32,255,
122,116,96,255,
117,104,88,255,
93,86,69,255,
108,93,78,255,
104,95,77,255,
101,94,78,255,
105,92,78,255,
114,101,90,255,
88,70,63,255,
122,111,96,255,
104,89,77,255,
159,152,126,255,
119,108,84,255,
115,95,77,255,
90,78,59,255,
127,123,100,255,
99,94,71,255,
110,100,86,255,
120,107,92,255,
229,211,200,255,
93,81,67,255,
179,166,162,255,
116,107,87,255,
113,104,88,255,
100,87,72,255,
103,94,81,255,
84,69,52,255,
102,89,71,255,
111,102,84,255,
104,94,74,255,
131,117,107,255,
129,115,103,255,
72,57,49,255,
100,86,69,255,
121,103,87,255,
111,104,87,255,
126,117,100,255,
99,86,80,255,
107,91,74,255,
202,185,169,255,
94,86,69,255,
101,88,70,255,
130,115,97,255,
90,85,73,255,
140,127,111,255,
94,85,71,255,
124,116,98,255,
116,103,83,255,
108,94,81,255,
64,54,39,255,
96,84,63,255,
95,76,62,255,
104,95,72,255,
97,87,64,255,
105,92,74,255,
87,83,64,255,
128,120,105,255,
119,107,92,255,
113,103,83,255,
106,95,79,255,
121,109,95,255,
80,69,61,255,
120,109,95,255,
91,84,67,255,
115,108,90,255,
113,103,89,255,
138,126,110,255,
111,101,86,255,
105,93,74,255,
120,107,87,255,
98,92,80,255,
110,91,76,255,
147,137,117,255,
98,85,73,255,
68,56,40,255,
120,111,96,255,
118,108,94,255,
101,82,68,255,
104,91,73,255,
132,121,106,255,
86,80,61,255,
91,81,62,255,
181,181,173,255,
80,72,56,255,
93,79,68,255,
97,86,71,255,
95,89,70,255,
122,109,90,255,
116,106,90,255,
108,90,76,255,
135,121,102,255,
71,70,54,255,
128,115,104,255,
140,134,122,255,
115,102,85,255,
163,148,130,255,
104,90,81,255,
127,112,96,255,
124,117,102,255,
128,114,104,255,
90,77,64,255,
93,83,60,255,
139,136,128,255,
110,99,81,255,
120,110,85,255,
106,97,78,255,
121,106,94,255,
73,59,57,255,
152,133,108,255,
86,73,52,255,
93,82,67,255,
127,115,102,255,
90,82,67,255,
89,84,66,255,
113,104,88,255,
115,104,89,255,
113,109,97,255,
118,107,92,255,
97,80,65,255,
150,134,123,255,
133,117,93,255,
159,140,117,255,
100,93,82,255,
77,68,53,255,
151,133,118,255,
108,98,81,255,
132,118,97,255,
138,132,113,255,
125,111,89,255,
117,99,86,255,
71,62,46,255,
135,120,113,255,
99,89,73,255,
126,115,102,255,
106,95,82,255,
99,80,65,255,
103,97,76,255,
104,98,87,255,
101,93,77,255,
134,120,109,255,
108,98,84,255,
73,64,48,255,
119,117,103,255,
88,77,62,255,
101,90,69,255,
116,102,86,255,
112,96,72,255,
128,119,99,255,
107,96,78,255,
111,103,86,255,
102,92,76,255,
125,112,98,255,
129,117,96,255,
101,90,71,255,
93,86,72,255,
104,97,84,255,
92,83,59,255,
113,104,93,255,
125,107,92,255,
90,78,53,255,
113,103,88,255,
120,112,95,255,
97,92,77,255,
109,96,77,255,
123,113,94,255,
107,99,88,255,
100,90,75,255,
90,78,64,255,
120,112,96,255,
108,96,81,255,
113,98,90,255,
94,88,72,255,
121,117,105,255,
65,51,40,255,
103,89,77,255,
129,112,88,255,
145,125,116,255,
158,140,120,255,
114,101,77,255,
117,107,93,255,
126,113,93,255,
104,90,71,255,
120,107,89,255,
132,122,107,255,
121,102,91,255,
120,106,94,255,
113,100,82,255,
142,136,112,255,
116,105,91,255,
105,94,74,255,
111,103,86,255,
99,92,74,255,
122,107,95,255,
86,73,56,255,
84,68,54,255,
106,96,80,255,
62,65,49,255,
113,102,86,255,
123,115,94,255,
127,121,105,255,
111,105,89,255,
113,102,88,255,
111,96,79,255,
76,67,45,255,
95,81,67,255,
135,123,109,255,
114,104,85,255,
122,112,97,255,
114,104,89,255,
107,90,67,255,
130,116,106,255,
99,89,74,255,
101,90,67,255,
122,104,80,255,
128,122,103,255,
116,99,87,255,
116,105,93,255,
110,92,75,255,
138,125,99,255,