File: Hrishikesh Dombe/Samples/Terrain/03-Terrain_Texturing/tga_data.txt
112,104,87,255,
178,174,159,255,
97,87,77,255,
123,110,103,255,
96,80,66,255,
91,85,68,255,
93,78,58,255,
103,96,86,255,
115,105,91,255,
89,74,57,255,
88,79,64,255,
98,87,73,255,
73,59,49,255,
75,69,56,255,
79,65,56,255,
108,99,86,255,
98,89,74,255,
85,78,69,255,
115,103,89,255,
145,132,106,255,
114,103,86,255,
102,89,77,255,
100,91,76,255,
117,110,90,255,
118,111,99,255,
90,78,65,255,
94,82,70,255,
69,63,44,255,
104,90,75,255,
164,152,132,255,
88,83,72,255,
108,101,81,255,
106,97,75,255,
131,123,107,255,
121,111,102,255,
105,94,71,255,
64,56,42,255,
92,80,68,255,
112,106,86,255,
137,122,110,255,
103,89,72,255,
57,49,42,255,
162,149,130,255,
149,133,122,255,
111,101,84,255,
132,125,108,255,
91,80,67,255,
121,109,87,255,
89,76,65,255,
101,92,77,255,
100,90,75,255,
140,132,111,255,
79,70,46,255,
93,83,71,255,
95,85,62,255,
103,89,79,255,
132,122,112,255,
107,93,75,255,
112,95,77,255,
107,100,82,255,
127,114,94,255,
109,103,89,255,
130,115,99,255,
80,72,58,255,
99,79,64,255,
87,73,59,255,
129,120,103,255,
113,102,79,255,
118,108,92,255,
116,101,89,255,
149,135,119,255,
125,115,100,255,
116,102,83,255,
99,91,82,255,
89,85,65,255,
83,74,61,255,
155,148,139,255,
96,83,71,255,
111,92,83,255,
151,149,137,255,
150,141,117,255,
85,72,58,255,
96,93,75,255,
91,82,58,255,
90,77,67,255,
120,108,88,255,
97,82,61,255,
128,120,100,255,
103,90,80,255,
104,92,71,255,
98,92,79,255,
154,148,138,255,
140,130,117,255,
104,92,71,255,
115,104,94,255,
123,111,96,255,
82,75,55,255,
104,94,79,255,
77,66,54,255,
113,105,88,255,
130,119,100,255,
120,108,94,255,
127,119,108,255,
128,117,101,255,
95,85,74,255,
131,117,103,255,
148,132,112,255,
101,91,74,255,
130,120,96,255,
102,93,78,255,
106,92,80,255,
127,110,86,255,
79,67,47,255,
97,81,63,255,
109,99,86,255,
134,126,108,255,
111,102,86,255,
135,123,109,255,
101,97,82,255,
116,102,83,255,
98,83,70,255,
79,75,59,255,
95,86,71,255,
81,73,59,255,
126,113,92,255,
95,88,79,255,
105,93,80,255,
122,110,91,255,
103,97,78,255,
111,97,79,255,
70,60,48,255,
97,86,73,255,
88,79,71,255,
124,114,98,255,
133,120,108,255,
116,106,82,255,
116,98,82,255,
89,82,63,255,
101,94,71,255,
98,89,71,255,
118,100,92,255,
202,185,162,255,
121,111,96,255,
97,88,73,255,
104,87,74,255,
98,94,77,255,
78,69,60,255,
113,103,88,255,
79,71,53,255,
122,112,92,255,
141,131,116,255,
98,87,75,255,
121,107,89,255,
68,64,49,255,
99,90,75,255,
87,78,56,255,
110,101,86,255,
99,90,76,255,
112,107,91,255,
106,97,84,255,
99,90,71,255,
103,91,80,255,
115,106,94,255,
132,123,108,255,
117,107,92,255,
117,105,96,255,
147,131,108,255,
92,78,59,255,
110,96,82,255,
125,116,105,255,
89,76,64,255,
100,87,73,255,
100,95,75,255,
94,88,70,255,
96,88,76,255,
111,99,86,255,
129,117,105,255,
123,113,90,255,
74,64,44,255,
64,55,39,255,
79,69,52,255,
160,147,124,255,
93,86,68,255,
129,109,94,255,
77,68,52,255,
196,181,163,255,
99,85,67,255,
118,107,88,255,
112,103,84,255,
155,147,126,255,
105,88,81,255,
110,99,84,255,
58,50,39,255,
100,89,73,255,
88,78,62,255,
110,102,89,255,
109,94,85,255,
115,101,92,255,
109,95,82,255,
96,83,66,255,
68,59,44,255,
102,93,74,255,
128,119,105,255,
95,86,68,255,
107,100,89,255,
112,99,80,255,
99,86,68,255,
148,134,110,255,
117,108,90,255,
80,71,65,255,
81,69,56,255,
147,140,129,255,
92,79,68,255,
99,87,69,255,
156,150,132,255,
90,80,66,255,
102,91,78,255,
122,107,84,255,
111,93,83,255,
93,83,67,255,
116,107,86,255,
124,108,93,255,
125,118,89,255,
136,126,112,255,
119,106,89,255,
108,99,77,255,
87,66,56,255,
99,91,79,255,
109,97,84,255,
139,119,105,255,
109,100,85,255,
135,117,95,255,
126,112,100,255,
106,98,82,255,
113,103,88,255,
138,124,106,255,
107,99,83,255,
75,66,60,255,
106,91,77,255,
110,105,79,255,
114,103,85,255,
127,117,95,255,
96,84,70,255,
107,98,75,255,
121,115,97,255,
137,122,109,255,
157,143,139,255,
101,90,75,255,
92,80,63,255,
86,78,66,255,
153,139,119,255,
126,119,104,255,
88,79,63,255,
115,104,89,255,
115,103,94,255,
140,132,112,255,
120,110,95,255,
129,114,105,255,
140,126,107,255,
114,99,78,255,
85,79,60,255,
100,92,71,255,
101,90,68,255,
111,98,83,255,
78,71,54,255,
122,110,90,255,
94,75,61,255,
83,71,53,255,
108,94,74,255,
94,81,71,255,
116,106,89,255,
142,131,113,255,
105,92,77,255,
109,100,77,255,
108,93,74,255,
107,93,74,255,
128,122,101,255,
137,121,108,255,
103,92,77,255,
126,116,90,255,
97,87,64,255,
87,78,58,255,
100,84,66,255,
136,123,101,255,
66,59,45,255,
135,122,103,255,
104,94,86,255,
155,141,139,255,
112,101,84,255,
108,94,76,255,
140,125,115,255,
104,92,75,255,
158,142,130,255,
93,85,66,255,
157,147,125,255,
102,92,78,255,
105,91,71,255,
118,110,98,255,
111,105,87,255,
97,83,73,255,
114,101,90,255,
112,102,88,255,
79,67,56,255,
116,102,89,255,
89,83,65,255,
152,140,118,255,
82,74,58,255,
142,126,109,255,
119,107,89,255,
78,69,54,255,
77,66,50,255,
154,144,130,255,
115,99,78,255,
68,59,44,255,
108,96,78,255,
101,86,68,255,
160,143,129,255,
119,113,99,255,
101,88,76,255,
71,57,45,255,
89,76,56,255,
79,79,53,255,
108,94,74,255,
156,141,127,255,
82,69,59,255,
102,90,70,255,
126,111,99,255,
120,106,92,255,
113,100,84,255,
84,76,64,255,
86,73,61,255,
120,113,90,255,
87,71,64,255,
101,87,73,255,
106,96,73,255,
78,65,44,255,
106,92,74,255,
123,111,97,255,
85,72,63,255,
136,127,111,255,
163,153,128,255,
105,95,88,255,
124,111,97,255,
87,74,54,255,
106,97,81,255,
86,82,70,255,
176,158,137,255,
105,92,77,255,
168,153,137,255,
125,114,95,255,
137,121,105,255,
128,112,100,255,
125,111,89,255,
130,116,92,255,
117,111,93,255,
115,107,93,255,
111,98,81,255,
99,86,69,255,
123,111,96,255,
135,130,112,255,
114,104,87,255,
140,133,111,255,
137,127,111,255,
161,147,138,255,
111,97,77,255,
90,80,65,255,
107,100,89,255,
127,109,98,255,
145,130,112,255,
147,130,113,255,
96,88,72,255,
115,108,95,255,
117,102,91,255,
102,92,77,255,
129,119,104,255,
138,121,111,255,
76,68,52,255,
103,97,84,255,
123,114,97,255,
119,110,95,255,
103,90,70,255,
100,97,77,255,
119,109,94,255,
106,93,82,255,
76,61,50,255,
56,37,22,255,
124,120,101,255,
108,100,78,255,
110,99,76,255,
139,126,105,255,
111,97,85,255,
64,56,48,255,
133,118,101,255,
95,80,69,255,
149,129,119,255,
103,88,69,255,
111,97,80,255,
110,89,69,255,
104,98,81,255,
98,87,70,255,
101,92,73,255,
96,87,72,255,
113,106,88,255,
118,104,92,255,
121,113,103,255,
105,92,78,255,
85,80,62,255,
127,114,98,255,
160,145,144,255,
114,97,82,255,
78,69,53,255,
117,103,87,255,
98,91,75,255,
106,100,89,255,
122,108,85,255,
97,86,71,255,
125,116,101,255,
130,120,110,255,
152,135,126,255,
123,112,95,255,
127,114,96,255,
115,98,78,255,
111,101,85,255,
112,102,85,255,
120,111,99,255,
75,68,55,255,
121,106,88,255,
124,108,96,255,
113,106,91,255,
124,116,101,255,
117,106,93,255,
108,95,77,255,
85,75,61,255,
126,114,96,255,
80,71,56,255,
109,104,92,255,
109,94,81,255,
100,93,72,255,
89,79,66,255,
119,109,93,255,
107,96,81,255,
86,78,62,255,
91,77,63,255,
128,108,86,255,
96,76,61,255,
134,118,101,255,
134,127,116,255,
101,92,77,255,
103,93,75,255,
104,97,86,255,
87,81,71,255,
105,96,81,255,
122,109,97,255,
102,88,69,255,
114,103,90,255,
152,136,120,255,
132,120,94,255,
119,106,90,255,
106,103,87,255,
113,104,95,255,
113,103,87,255,
82,72,58,255,
128,112,91,255,
78,61,53,255,
84,78,65,255,
138,131,119,255,
103,96,83,255,
115,103,87,255,
111,99,79,255,
102,92,72,255,
123,111,100,255,
134,128,111,255,
95,81,63,255,
123,112,90,255,
125,114,101,255,
102,86,70,255,
92,79,67,255,
119,105,86,255,
133,122,109,255,
101,90,83,255,
96,83,68,255,
109,96,85,255,
129,120,105,255,
92,83,70,255,
122,106,82,255,
80,65,52,255,
98,92,74,255,
93,77,59,255,
105,90,77,255,
93,82,66,255,
144,138,127,255,
90,77,66,255,
106,95,91,255,
95,86,71,255,
98,89,72,255,
101,92,77,255,
107,101,91,255,
108,90,77,255,
145,131,113,255,
107,101,86,255,
106,95,79,255,
97,88,74,255,
113,105,88,255,
107,97,73,255,
138,119,103,255,
90,72,67,255,
162,147,123,255,
101,91,77,255,
139,135,118,255,
91,77,67,255,
90,81,68,255,
97,81,63,255,
117,105,93,255,
110,93,80,255,
100,91,82,255,
109,101,88,255,
111,98,87,255,
148,143,132,255,
133,121,105,255,
152,147,131,255,
47,39,26,255,
111,99,87,255,
113,101,83,255,
160,147,124,255,
119,107,86,255,
114,104,90,255,
104,91,74,255,
134,120,105,255,
96,82,63,255,
108,92,71,255,
136,124,111,255,
88,77,64,255,
150,138,123,255,
118,108,93,255,
110,96,86,255,
129,116,97,255,
134,124,118,255,
142,126,97,255,
126,115,102,255,
117,103,84,255,
118,104,87,255,
179,179,165,255,
124,109,94,255,
155,144,127,255,
120,107,96,255,
103,96,86,255,
101,92,77,255,
103,93,84,255,
128,119,98,255,
113,100,94,255,
135,125,109,255,
93,84,68,255,
83,71,50,255,
127,117,102,255,
98,91,77,255,
129,123,111,255,
89,75,55,255,
106,89,74,255,
118,107,95,255,
111,100,79,255,
150,146,133,255,
75,60,49,255,
133,118,104,255,
99,86,66,255,
127,117,103,255,
114,99,87,255,
108,94,84,255,
111,106,87,255,
122,102,86,255,
137,122,103,255,
93,82,68,255,
123,114,96,255,
116,103,88,255,
157,143,132,255,
108,101,89,255,
192,180,168,255,
134,124,109,255,
100,88,71,255,
138,129,118,255,
105,87,73,255,
109,95,78,255,
86,77,62,255,
129,115,96,255,
139,130,113,255,
100,88,73,255,
116,103,85,255,
140,129,120,255,
126,111,103,255,
89,78,62,255,
103,93,79,255,
108,98,75,255,
100,90,75,255,
121,107,88,255,
106,91,74,255,
109,100,75,255,
114,100,86,255,
109,94,77,255,
109,98,84,255,
116,99,83,255,
164,144,124,255,
92,84,68,255,
115,107,95,255,
124,111,95,255,
144,131,110,255,
84,75,57,255,
70,60,41,255,
145,123,106,255,
134,126,115,255,
85,76,62,255,
108,98,84,255,
132,120,100,255,
135,125,106,255,
108,97,83,255,
127,119,106,255,
98,84,64,255,
110,97,82,255,
93,85,69,255,
132,122,116,255,
85,72,61,255,
128,117,104,255,
112,99,76,255,
96,81,63,255,
110,95,78,255,
102,91,76,255,
135,122,111,255,
107,96,79,255,
95,83,67,255,
91,74,58,255,
101,94,75,255,
136,124,114,255,
94,78,60,255,
115,106,90,255,
91,81,64,255,
119,104,91,255,
70,57,38,255,
88,78,59,255,
95,83,74,255,
107,99,82,255,
111,98,78,255,
115,97,78,255,
116,102,82,255,
99,87,75,255,
95,85,74,255,
129,118,102,255,
91,79,60,255,
111,99,84,255,
100,88,77,255,
150,130,115,255,
110,98,74,255,
97,83,71,255,
106,93,73,255,
111,100,85,255,
92,87,66,255,
80,59,49,255,
119,101,87,255,
129,110,95,255,
98,92,73,255,
76,73,52,255,
135,120,110,255,
111,101,86,255,
144,133,111,255,
113,104,89,255,
118,108,94,255,
71,53,37,255,
142,128,118,255,
127,122,101,255,
106,91,77,255,
85,70,49,255,
93,85,62,255,
110,100,87,255,
132,123,106,255,
103,92,77,255,
116,103,83,255,
103,95,73,255,
117,111,93,255,
99,91,74,255,
117,109,91,255,
134,112,96,255,
98,83,68,255,
111,100,86,255,
76,66,51,255,
111,96,86,255,
112,102,79,255,
130,118,101,255,
127,117,94,255,
126,115,98,255,
116,105,82,255,
121,113,98,255,
114,103,88,255,
136,121,104,255,
106,93,79,255,
98,83,68,255,
141,126,111,255,
113,102,84,255,
133,118,106,255,
116,106,86,255,
123,111,105,255,
107,101,82,255,
110,98,81,255,
102,84,63,255,
112,95,89,255,
119,113,87,255,
90,78,66,255,
119,108,88,255,
86,70,50,255,
62,55,48,255,
148,138,132,255,
104,93,80,255,
140,123,105,255,
112,101,88,255,
164,157,136,255,
122,109,96,255,
107,100,80,255,
132,121,107,255,
70,61,44,255,
82,77,66,255,
141,130,116,255,
114,101,83,255,
116,107,92,255,
143,132,119,255,
100,87,68,255,
116,102,88,255,
174,162,150,255,
105,91,72,255,
76,66,58,255,
121,109,95,255,
139,126,118,255,
117,105,93,255,
125,112,94,255,
101,90,75,255,
136,121,110,255,
99,87,75,255,
107,94,75,255,
152,142,119,255,
108,98,79,255,
86,74,54,255,
163,141,131,255,
93,77,60,255,
119,108,94,255,
59,49,43,255,
111,100,90,255,
152,138,118,255,
93,82,65,255,
135,123,99,255,
82,76,61,255,
133,125,114,255,
81,68,45,255,
136,120,101,255,
128,120,104,255,
132,124,114,255,
105,90,78,255,
133,120,107,255,
127,116,101,255,
119,109,94,255,
178,166,155,255,
126,116,102,255,
150,139,116,255,
100,91,75,255,
108,92,79,255,
51,38,32,255,
116,105,89,255,
110,101,89,255,
127,115,102,255,
219,208,186,255,
118,101,84,255,
110,99,76,255,
107,98,89,255,
108,98,78,255,
139,123,104,255,
168,162,145,255,
123,116,99,255,
122,109,97,255,
101,91,74,255,
115,104,87,255,
101,92,77,255,
101,96,76,255,
106,95,81,255,
117,101,87,255,
87,78,61,255,
125,115,100,255,
116,105,96,255,
103,92,80,255,
108,94,76,255,
126,110,93,255,
111,105,100,255,
117,107,92,255,
101,92,80,255,
87,80,66,255,
119,105,89,255,
104,94,83,255,
86,78,71,255,
117,104,87,255,
170,152,139,255,
86,76,63,255,
88,79,62,255,
99,89,74,255,
69,53,42,255,
113,104,89,255,
82,78,68,255,
119,104,90,255,
108,100,89,255,
149,142,129,255,
135,127,101,255,
122,108,90,255,
100,86,67,255,
107,102,91,255,
107,93,74,255,
147,130,123,255,
104,98,84,255,
117,108,93,255,
111,102,89,255,
90,80,66,255,
147,136,117,255,
122,107,100,255,
114,100,82,255,
119,110,88,255,
72,63,46,255,
91,81,65,255,
69,58,44,255,
150,137,127,255,
102,93,73,255,
116,102,91,255,
123,109,84,255,
118,105,89,255,
125,120,104,255,
105,97,86,255,
133,121,102,255,
119,112,95,255,
83,78,58,255,
120,108,86,255,
113,106,88,255,
111,102,88,255,
64,61,49,255,
97,87,67,255,
138,123,104,255,
119,104,93,255,
140,125,106,255,
103,90,72,255,
91,79,62,255,
114,103,87,255,
132,122,103,255,
103,97,77,255,
105,89,73,255,
183,172,154,255,
102,97,79,255,
99,86,74,255,
65,50,39,255,
112,106,88,255,
113,102,88,255,
74,66,58,255,
91,87,67,255,
128,109,95,255,
156,145,131,255,
80,74,62,255,
78,69,53,255,
99,92,67,255,
113,99,78,255,
143,127,111,255,
114,101,83,255,
119,108,92,255,
124,109,97,255,
108,93,78,255,
117,102,86,255,
109,100,85,255,
90,81,67,255,
110,109,86,255,
141,124,106,255,
164,151,136,255,
72,64,49,255,
100,88,69,255,
122,108,96,255,
174,163,134,255,
99,90,75,255,
109,93,86,255,
109,93,76,255,
112,105,94,255,
126,116,101,255,
146,135,112,255,
157,151,143,255,
95,89,72,255,
126,114,100,255,
129,123,111,255,
125,108,95,255,
100,93,77,255,
101,90,77,255,
104,95,78,255,
139,128,114,255,
102,88,79,255,
96,86,72,255,
113,102,83,255,
84,72,52,255,
137,125,108,255,
102,88,77,255,
124,109,87,255,
153,142,121,255,
92,81,61,255,
99,86,77,255,
84,79,65,255,
115,106,90,255,
105,91,77,255,
127,117,98,255,
119,108,87,255,
112,94,86,255,
117,111,94,255,
132,127,108,255,
144,127,120,255,
136,124,105,255,
131,124,112,255,
130,114,91,255,
95,80,62,255,
125,112,95,255,
92,82,72,255,
109,94,77,255,
127,115,96,255,
93,82,67,255,
124,111,98,255,
98,87,72,255,
115,102,84,255,
83,75,58,255,
91,81,66,255,
104,95,81,255,
96,86,68,255,
96,87,77,255,
142,137,127,255,
74,64,54,255,
114,98,84,255,
133,122,108,255,
122,110,96,255,
133,125,102,255,
98,89,70,255,
103,98,87,255,
115,106,95,255,
119,107,91,255,
97,87,70,255,
122,108,88,255,
94,76,61,255,
120,106,87,255,
107,101,89,255,
86,83,67,255,
182,183,165,255,
99,89,75,255,
99,84,73,255,
159,148,127,255,
70,57,44,255,
98,88,72,255,
102,96,77,255,
106,100,82,255,
120,108,91,255,
128,120,95,255,
68,57,42,255,
100,83,74,255,
92,84,58,255,
111,101,86,255,
117,106,92,255,
85,80,71,255,
143,130,111,255,
99,90,76,255,
125,116,99,255,
114,108,98,255,
115,101,82,255,
100,89,74,255,
122,113,95,255,
112,111,88,255,
149,139,123,255,
113,105,83,255,
116,105,92,255,
147,135,122,255,
100,77,56,255,
120,111,92,255,
101,87,73,255,
127,117,101,255,
106,96,74,255,
103,92,80,255,
127,121,103,255,
106,91,81,255,
143,137,118,255,
147,145,129,255,
155,142,131,255,
118,105,86,255,
113,99,80,255,
134,123,116,255,
127,112,102,255,
134,121,108,255,
78,65,55,255,
126,113,97,255,
78,69,55,255,
143,133,106,255,
127,121,102,255,
94,80,61,255,
131,124,100,255,
116,110,97,255,
124,113,92,255,
98,87,67,255,
105,97,78,255,
98,88,67,255,
125,120,102,255,
122,110,95,255,
124,108,87,255,
144,132,112,255,
94,84,69,255,
105,94,87,255,
95,86,70,255,
100,95,78,255,
95,87,72,255,
100,86,76,255,
92,82,67,255,
121,113,96,255,
120,106,95,255,
96,86,72,255,
117,108,94,255,
133,121,100,255,
85,72,61,255,
91,83,76,255,
100,91,75,255,
121,107,97,255,
109,101,79,255,
134,124,109,255,
109,97,88,255,
99,93,74,255,
135,125,110,255,
155,142,130,255,
197,195,182,255,
129,117,105,255,
138,126,113,255,
115,108,99,255,
92,79,62,255,
148,135,114,255,
100,93,66,255,
93,81,67,255,
103,90,79,255,
93,83,61,255,
144,132,125,255,
125,110,91,255,
117,108,89,255,
96,82,68,255,
98,83,74,255,
110,98,85,255,
86,73,63,255,
97,86,74,255,
131,121,106,255,
129,121,110,255,
175,161,150,255,
97,87,78,255,
130,116,103,255,
93,76,62,255,
111,101,88,255,
79,70,53,255,
91,80,66,255,
101,88,70,255,
116,103,90,255,
106,100,97,255,
86,77,62,255,
116,105,86,255,
102,92,78,255,
113,105,93,255,
107,100,83,255,
80,67,54,255,
74,59,49,255,
169,149,133,255,
102,88,78,255,
134,118,105,255,
120,110,96,255,
114,112,98,255,
143,128,110,255,
107,94,82,255,
124,111,88,255,
115,104,87,255,
136,125,109,255,
117,106,83,255,
108,101,80,255,
101,99,75,255,
113,98,79,255,
122,112,98,255,
93,78,64,255,
118,106,94,255,
96,82,55,255,
125,116,101,255,
100,82,67,255,
129,115,100,255,
166,147,124,255,
108,94,84,255,
119,106,86,255,
129,119,105,255,
123,114,98,255,
128,114,103,255,
134,126,114,255,
73,64,48,255,
89,80,66,255,
112,104,88,255,
118,105,86,255,
105,96,83,255,
98,90,79,255,
105,97,77,255,
90,80,68,255,
112,98,79,255,
98,85,74,255,
97,81,64,255,
176,152,131,255,
196,191,175,255,
110,97,78,255,
124,114,98,255,
99,92,71,255,
82,74,67,255,
138,130,118,255,
159,146,136,255,
126,117,95,255,
94,87,69,255,
83,61,49,255,
116,97,81,255,
117,106,92,255,
93,79,69,255,
98,87,70,255,
87,78,66,255,
89,76,66,255,
81,76,64,255,
91,81,63,255,
140,130,116,255,
100,90,74,255,
170,153,135,255,
133,116,95,255,
101,94,78,255,
57,42,31,255,
107,92,76,255,
70,59,54,255,
89,83,74,255,
82,73,55,255,
94,87,70,255,
131,118,105,255,
100,86,66,255,
106,92,82,255,
138,126,109,255,
93,84,71,255,
101,91,70,255,
88,79,66,255,
116,105,87,255,
97,87,73,255,
112,95,83,255,
127,114,97,255,
121,109,85,255,
137,125,111,255,
71,57,45,255,
68,70,46,255,
57,45,35,255,
96,84,72,255,
154,145,137,255,
130,119,106,255,
167,149,123,255,
88,82,63,255,
126,123,100,255,
86,68,53,255,
119,109,84,255,
109,95,79,255,
115,110,91,255,
106,98,87,255,
107,101,80,255,
111,102,78,255,
98,89,82,255,
116,101,85,255,
82,72,59,255,
117,105,89,255,
100,90,71,255,
97,91,71,255,
117,106,96,255,
132,124,106,255,
81,72,62,255,
156,144,121,255,
104,94,80,255,
97,82,72,255,
118,108,93,255,
101,91,75,255,
122,111,100,255,
116,105,91,255,
121,110,98,255,
88,83,71,255,
113,103,88,255,
103,96,78,255,
92,81,72,255,
120,109,88,255,
94,82,66,255,
95,88,69,255,
130,115,108,255,
82,70,54,255,
117,107,85,255,
105,99,84,255,
140,133,118,255,
125,108,91,255,
103,90,80,255,
138,117,107,255,
77,68,52,255,
107,100,84,255,
100,82,68,255,
84,67,50,255,
97,86,70,255,
112,101,88,255,
123,113,95,255,
108,95,80,255,
112,106,87,255,
81,74,57,255,
107,96,80,255,
106,96,78,255,
117,102,93,255,
89,78,60,255,
83,74,49,255,
41,35,23,255,
125,112,93,255,
107,94,79,255,
130,111,97,255,
138,123,99,255,
119,109,94,255,
119,107,93,255,
103,89,70,255,
142,131,112,255,
133,125,108,255,
93,78,67,255,
124,111,100,255,
149,137,131,255,
117,98,77,255,
98,88,73,255,
87,82,70,255,
98,83,64,255,
100,89,75,255,
126,107,92,255,
86,72,64,255,
224,204,192,255,
98,85,73,255,
77,67,55,255,
109,97,84,255,
106,98,84,255,
127,120,102,255,
116,109,93,255,
137,128,120,255,
103,93,73,255,
95,82,63,255,
77,68,51,255,
116,105,90,255,
117,105,94,255,
104,96,79,255,
106,94,75,255,
24,19,8,255,
112,104,95,255,
99,89,74,255,
83,76,66,255,
102,93,78,255,
152,142,126,255,
131,121,101,255,
164,147,128,255,
101,96,77,255,
74,67,48,255,
126,111,93,255,
112,102,87,255,
112,98,80,255,
84,71,59,255,
106,96,83,255,
121,109,91,255,
137,128,119,255,
126,110,91,255,
89,78,64,255,
123,118,102,255,
143,129,110,255,
86,79,68,255,
93,86,69,255,
135,124,110,255,
180,164,146,255,
113,100,87,255,
76,64,51,255,
127,113,95,255,
106,96,77,255,
113,101,84,255,
86,66,54,255,
93,77,61,255,
62,51,45,255,
110,92,81,255,
111,100,87,255,
164,145,131,255,
129,117,101,255,
97,87,73,255,
100,91,75,255,
98,88,73,255,
75,71,60,255,
113,104,90,255,
101,93,85,255,
112,104,88,255,
123,109,98,255,
91,79,67,255,
108,95,84,255,
135,122,103,255,
116,105,88,255,
149,135,124,255,
113,102,88,255,
122,107,86,255,
105,92,74,255,
95,86,70,255,
94,83,72,255,
84,69,60,255,
116,105,85,255,
104,91,74,255,
118,103,87,255,
89,82,65,255,
128,121,101,255,
110,107,91,255,
145,131,113,255,
117,105,86,255,
144,131,120,255,
123,108,93,255,
67,56,41,255,
93,82,71,255,
105,90,79,255,
111,103,78,255,
83,75,50,255,
67,59,43,255,
107,98,82,255,
98,85,67,255,
87,69,56,255,
121,110,97,255,
87,80,64,255,
92,82,76,255,
148,133,116,255,
188,174,150,255,
159,149,133,255,
118,101,88,255,
94,81,71,255,
123,116,100,255,
118,113,95,255,
109,99,77,255,
118,107,92,255,
162,155,137,255,
127,121,96,255,
74,68,48,255,
88,78,53,255,
129,118,94,255,
101,89,72,255,
123,110,93,255,
114,103,85,255,
80,71,65,255,
106,97,87,255,
72,58,41,255,
93,84,73,255,
93,86,64,255,
73,62,52,255,
122,110,84,255,
85,74,60,255,
130,120,105,255,
87,74,62,255,
108,94,74,255,
82,72,58,255,
84,74,66,255,
148,131,117,255,
152,138,123,255,
147,133,114,255,
89,76,57,255,
93,82,67,255,
73,61,48,255,
120,110,96,255,
129,123,104,255,
111,96,83,255,
107,99,83,255,
92,85,73,255,
98,86,73,255,
116,102,88,255,
59,45,34,255,
135,125,119,255,
132,122,107,255,
124,111,94,255,
75,68,56,255,
121,109,95,255,
110,96,75,255,
123,116,91,255,
94,86,61,255,
147,133,122,255,
117,105,88,255,
107,97,79,255,
140,131,109,255,
92,82,65,255,
97,85,72,255,
105,93,73,255,
88,80,57,255,
135,123,100,255,
121,108,95,255,
100,91,69,255,
75,67,54,255,
71,63,46,255,
94,83,66,255,
96,86,69,255,
71,62,39,255,
118,109,85,255,
160,145,128,255,
98,91,79,255,
87,78,65,255,
125,114,100,255,
113,108,87,255,
164,144,123,255,
82,69,59,255,
117,106,86,255,
46,39,23,255,
95,82,63,255,
95,79,69,255,
176,159,148,255,
91,78,65,255,
122,105,87,255,
134,124,105,255,
100,88,72,255,
94,82,70,255,
122,110,90,255,
134,124,111,255,
97,84,74,255,
119,105,98,255,
99,90,74,255,
107,99,84,255,
107,99,82,255,
108,95,77,255,
104,87,73,255,
100,92,76,255,
101,94,74,255,
120,102,87,255,
89,80,64,255,
147,135,114,255,
112,99,79,255,
83,67,48,255,
119,108,91,255,
100,84,67,255,
124,113,100,255,
125,106,87,255,
136,126,113,255,
142,129,121,255,
100,98,82,255,
103,99,84,255,
69,54,41,255,
118,108,85,255,
166,148,127,255,
110,97,78,255,
87,74,55,255,
192,181,163,255,
69,51,35,255,
91,83,70,255,
93,84,68,255,
115,98,78,255,
113,98,71,255,
113,107,94,255,
135,127,106,255,
122,114,97,255,
100,88,75,255,
156,145,131,255,
105,92,80,255,
109,99,85,255,
146,135,119,255,
81,70,56,255,
128,114,103,255,
116,105,90,255,
125,111,89,255,
121,111,88,255,
130,119,101,255,
125,110,90,255,
84,76,62,255,
54,37,31,255,
74,66,48,255,
101,90,77,255,
116,106,92,255,
114,98,77,255,
106,95,79,255,
78,69,62,255,
114,106,87,255,
109,97,75,255,
80,71,56,255,
93,85,82,255,
126,116,102,255,
92,78,68,255,
92,82,67,255,
161,146,129,255,
76,69,52,255,
144,139,129,255,
90,72,56,255,
96,83,61,255,
108,94,80,255,
143,137,122,255,
117,107,88,255,
138,128,117,255,
169,163,143,255,
124,114,99,255,
123,110,99,255,
97,87,71,255,
84,76,61,255,
114,104,88,255,
66,51,43,255,
116,97,77,255,
116,108,91,255,
94,83,64,255,
122,112,89,255,
98,93,73,255,
85,76,68,255,
130,123,106,255,
78,74,55,255,
101,91,76,255,
97,90,73,255,
100,90,76,255,
113,103,91,255,
134,119,101,255,
190,176,157,255,
119,108,92,255,
207,195,183,255,